File: 测试-XRD.txt
3.0      757
3.06     694
3.12     723
3.18     704
3.24     680
3.3      638
3.36     675
3.42     617
3.48     617
3.54     605
3.6      631
3.66     609
3.72     611
3.78     607
3.84     573
3.9      595
3.96     615
4.02     567
4.08     565
4.14     555
4.2      580
4.26     561
4.32     542
4.38     565
4.44     559
4.5      525
4.56     556
4.62     558
4.68     525
4.74     504
4.8      482
4.86     483
4.92     492
4.98     478
5.04     528
5.1      538
5.16     526
5.22     485
5.28     543
5.34     536
5.4      504
5.46     556
5.52     519
5.58     540
5.64     506
5.7      498
5.76     516
5.82     551
5.88     534
5.94     522
6.0      531
6.06     524
6.12     530
6.18     548
6.24     518
6.3      563
6.36     547
6.42     523
6.48     556
6.54     523
6.6      532
6.66     518
6.72     541
6.78     536
6.84     542
6.9      542
6.96     554
7.02     580
7.08     510
7.14     570
7.2      528
7.26     519
7.32     550
7.38     541
7.44     575
7.5      549
7.56     568
7.62     571
7.68     534
7.74     555
7.8      574
7.86     561
7.92     579
7.98     565
8.04     559
8.1      517
8.16     582
8.22     559
8.28     574
8.34     547
8.4      568
8.46     530
8.52     563
8.58     575
8.64     579
8.7      549
8.76     516
8.82     576
8.88     550
8.94     562
9.0      591
9.06     553
9.12     596
9.18     571
9.24     575
9.3      566
9.36     539
9.42     563
9.48     561
9.54     559
9.6      538
9.66     558
9.72     540
9.78     568
9.84     542
9.9      609
9.96     586
10.02    609
10.08    614
10.14    623
10.2     611
10.26    628
10.32    696
10.38    685
10.44    712
10.5     768
10.56    787
10.62    810
10.68    828
10.74    738
10.8     727
10.86    680
10.92    645
10.98    610
11.04    578
11.1     600
11.16    588
11.22    572
11.28    565
11.34    576
11.4     581
11.46    540
11.52    487
11.58    550
11.64    526
11.7     496
11.76    549
11.82    493
11.88    558
11.94    533
12.0     516
12.06    536
12.12    534
12.18    495
12.24    547
12.3     563
12.36    507
12.42    546
12.48    535
12.54    527
12.6     540
12.66    525
12.72    536
12.78    542
12.84    541
12.9     524
12.96    547
13.02    547
13.08    524
13.14    505
13.2     512
13.26    510
13.32    515
13.38    545
13.44    521
13.5     534
13.56    514
13.62    564
13.68    523
13.74    505
13.8     552
13.86    520
13.92    523
13.98    541
14.04    547
14.1     558
14.16    521
14.22    534
14.28    556
14.34    535
14.4     528
14.46    560
14.52    558
14.58    544
14.64    527
14.7     590
14.76    609
14.82    618
14.88    675
14.94    665
15.0     599
15.06    596
15.12    579
15.18    627
15.24    582
15.3     551
15.36    634
15.42    605
15.48    596
15.54    611
15.6     546
15.66    549
15.72    532
15.78    613
15.84    576
15.9     562
15.96    580
16.02    551
16.08    564
16.14    556
16.2     553
16.26    547
16.32    542
16.38    570
16.44    559
16.5     577
16.56    572
16.62    595
16.68    569
16.74    561
16.8     584
16.86    594
16.92    602
16.98    589
17.04    625
17.1     626
17.16    659
17.22    645
17.28    672
17.34    694
17.4     764
17.46    853
17.52    1070
17.58    1260
17.64    1502
17.7     1815
17.76    1566
17.82    1202
17.88    905
17.94    830
18.0     759
18.06    766
18.12    711
18.18    667
18.24    654
18.3     662
18.36    658
18.42    606
18.48    621
18.54    653
18.6     662
18.66    647
18.72    632
18.78    674
18.84    642
18.9     661
18.96    627
19.02    696
19.08    651
19.14    628
19.2     647
19.26    663
19.32    631
19.38    653
19.44    663
19.5     656
19.56    668
19.62    657
19.68    698
19.74    657
19.8     676
19.86    640
19.92    696
19.98    689
20.04    654
20.1     671
20.16    681
20.22    657
20.28    706
20.34    678
20.4     683
20.46    672
20.52    673
20.58    693
20.64    690
20.7     730
20.76    677
20.82    732
20.88    705
20.94    707
21.0     699
21.06    691
21.12    740
21.18    679
21.24    786
21.3     703
21.36    708
21.42    698
21.48    735
21.54    726
21.6     773
21.66    765
21.72    675
21.78    736
21.84    752
21.9     711
21.96    767
22.02    751
22.08    740
22.14    702
22.2     781
22.26    765
22.32    711
22.38    729
22.44    763
22.5     763
22.56    724
22.62    774
22.68    737
22.74    799
22.8     786
22.86    810
22.92    786
22.98    778
23.04    819
23.1     808
23.16    800
23.22    828
23.28    861
23.34    873
23.4     827
23.46    852
23.52    876
23.58    928
23.64    937
23.7     992
23.76    988
23.82    1052
23.88    1079
23.94    1154
24.0     1266
24.06    1416
24.12    1369
24.18    1394
24.24    1342
24.3     1224
24.36    1166
24.42    1073
24.48    1007
24.54    1003
24.6     981
24.66    890
24.72    923
24.78    868
24.84    907
24.9     870
24.96    848
25.02    911
25.08    903
25.14    901
25.2     892
25.26    900
25.32    962
25.38    1025
25.44    1074
25.5     1097
25.56    1004
25.62    931
25.68    907
25.74    801
25.8     864
25.86    832
25.92    831
25.98    823
26.04    778
26.1     809
26.16    799
26.22    786
26.28    765
26.34    747
26.4     816
26.46    779
26.52    785
26.58    769
26.64    792
26.7     771
26.76    753
26.82    719
26.88    756
26.94    742
27.0     715
27.06    748
27.12    755
27.18    751
27.24    751
27.3     735
27.36    702
27.42    762
27.48    711
27.54    754
27.6     716
27.66    737
27.72    739
27.78    737
27.84    678
27.9     752
27.96    717
28.02    776
28.08    736
28.14    776
28.2     818
28.26    869
28.32    835
28.38    878
28.44    924
28.5     991
28.56    967
28.62    964
28.68    913
28.74    936
28.8     928
28.86    952
28.92    946
28.98    959
29.04    983
29.1     923
29.16    950
29.22    938
29.28    1002
29.34    989
29.4     1119
29.46    1233
29.52    1387
29.58    1685
29.64    1759
29.7     1586
29.76    1467
29.82    1317
29.88    1329
29.94    1300
30.0     1194
30.06    1035
30.12    906
30.18    837
30.24    803
30.3     809
30.36    758
30.42    754
30.48    761
30.54    731
30.6     694
30.66    709
30.72    689
30.78    633
30.84    622
30.9     652
30.96    630
31.02    615
31.08    643
31.14    534
31.2     634
31.26    602
31.32    571
31.38    580
31.44    576
31.5     518
31.56    529
31.62    549
31.68    552
31.74    514
31.8     534
31.86    532
31.92    493
31.98    527
32.04    517
32.1     550
32.16    544
32.22    598
32.28    527
32.34    502
32.4     548
32.46    527
32.52    510
32.58    528
32.64    510
32.7     496
32.76    500
32.82    479
32.88    464
32.94    490
33.0     472
33.06    466
33.12    497
33.18    466
33.24    458
33.3     437
33.36    435
33.42    427
33.48    430
33.54    467
33.6     457
33.66    425
33.72    421
33.78    419
33.84    444
33.9     407
33.96    429
34.02    444
34.08    430
34.14    424
34.2     439
34.26    421
34.32    448
34.38    427
34.44    428
34.5     418
34.56    392
34.62    373
34.68    393
34.74    426
34.8     464
34.86    387
34.92    418
34.98    381
35.04    409
35.1     403
35.16    438
35.22    428
35.28    410
35.34    403
35.4     383
35.46    379
35.52    415
35.58    416
35.64    395
35.7     408
35.76    406
35.82    421
35.88    439
35.94    391
36.0     430
36.06    411
36.12    375
36.18    397
36.24    397
36.3     369
36.36    361
36.42    376
36.48    354
36.54    342
36.6     315
36.66    361
36.72    355
36.78    341
36.84    359
36.9     376
36.96    352
37.02    350
37.08    367
37.14    352
37.2     380
37.26    366
37.32    348
37.38    340
37.44    365
37.5     374
37.56    344
37.62    381
37.68    406
37.74    437
37.8     419
37.86    504
37.92    480
37.98    515
38.04    480
38.1     508
38.16    564
38.22    651
38.28    665
38.34    615
38.4     593
38.46    537
38.52    443
38.58    432
38.64    406
38.7     365
38.76    344
38.82    363
38.88    381
38.94    361
39.0     390
39.06    343
39.12    357
39.18    342
39.24    363
39.3     351
39.36    359
39.42    335
39.48    369
39.54    353
39.6     344
39.66    342
39.72    347
39.78    336
39.84    313
39.9     340
39.96    297
40.02    325
40.08    329
40.14    343
40.2     349
40.26    287
40.32    327
40.38    306
40.44    315
40.5     321
40.56    306
40.62    326
40.68    353
40.74    340
40.8     353
40.86    348
40.92    323
40.98    331
41.04    353
41.1     361
41.16    361
41.22    320
41.28    325
41.34    336
41.4     351
41.46    324
41.52    309
41.58    319
41.64    324
41.7     351
41.76    317
41.82    319
41.88    323
41.94    331
42.0     326
42.06    324
42.12    323
42.18    288
42.24    296
42.3     314
42.36    310
42.42    320
42.48    323
42.54    333
42.6     347
42.66    289
42.72    315
42.78    295
42.84    283
42.9     345
42.96    306
43.02    306
43.08    294
43.14    303
43.2     326
43.26    326
43.32    376
43.38    319
43.44    324
43.5     313
43.56    349
43.62    326
43.68    284
43.74    306
43.8     308
43.86    318
43.92    314
43.98    323
44.04    313
44.1     311
44.16    311
44.22    304
44.28    307
44.34    302
44.4     279
44.46    317
44.52    309
44.58    250
44.64    300
44.7     313
44.76    315
44.82    278
44.88    292
44.94    294
45.0     267
45.06    324
45.12    273
45.18    288
45.24    291
45.3     309
45.36    347
45.42    334
45.48    342
45.54    358
45.6     374
45.66    394
45.72    385
45.78    430
45.84    395
45.9     366
45.96    363
46.02    348
46.08    312
46.14    331
46.2     329
46.26    322
46.32    336
46.38    324
46.44    323
46.5     352
46.56    328
46.62    307
46.68    320
46.74    316
46.8     338
46.86    318
46.92    319
46.98    341
47.04    368
47.1     349
47.16    360
47.22    392
47.28    404
47.34    442
47.4     466
47.46    531
47.52    604
47.58    534
47.64    543
47.7     478
47.76    426
47.82    346
47.88    318
47.94    312
48.0     297
48.06    274
48.12    302
48.18    324
48.24    292
48.3     239
48.36    277
48.42    277
48.48    306
48.54    280
48.6     279
48.66    285
48.72    288
48.78    296
48.84    276
48.9     272
48.96    288
49.02    314
49.08    282
49.14    299
49.2     287
49.26    293
49.32    321
49.38    306
49.44    304
49.5     270
49.56    292
49.62    309
49.68    275
49.74    277
49.8     262
49.86    268
49.92    294
49.98    277
50.04    269
50.1     269
50.16    248
50.22    259
50.28    274
50.34    265
50.4     250
50.46    270
50.52    251
50.58    278
50.64    259
50.7     242
50.76    244
50.82    296
50.88    245
50.94    272
51.0     246
51.06    272
51.12    257
51.18    244
51.24    255
51.3     247
51.36    263
51.42    268
51.48    272
51.54    283
51.6     248
51.66    259
51.72    284
51.78    280
51.84    250
51.9     299
51.96    283
52.02    313
52.08    350
52.14    357
52.2     467
52.26    437
52.32    436
52.38    434
52.44    425
52.5     374
52.56    371
52.62    320
52.68    310
52.74    293
52.8     268
52.86    271
52.92    273
52.98    228
53.04    268
53.1     260
53.16    224
53.22    251
53.28    236
53.34    235
53.4     257
53.46    241
53.52    237
53.58    262
53.64    226
53.7     261
53.76    248
53.82    249
53.88    259
53.94    254
54.0     244
54.06    238
54.12    252
54.18    258
54.24    263
54.3     246
54.36    252
54.42    266
54.48    264
54.54    237
54.6     235
54.66    238
54.72    234
54.78    251
54.84    250
54.9     277
54.96    236
55.02    246
55.08    244
55.14    231
55.2     267
55.26    233
55.32    244
55.38    275
55.44    257
55.5     272
55.56    279
55.62    327
55.68    306
55.74    290
55.8     303
55.86    276
55.92    297
55.98    250
56.04    237
56.1     246
56.16    250
56.22    266
56.28    262
56.34    247
56.4     241
56.46    238
56.52    247
56.58    252
56.64    238
56.7     287
56.76    268
56.82    252
56.88    242
56.94    224
57.0     252
57.06    258
57.12    248
57.18    273
57.24    256
57.3     269
57.36    249
57.42    274
57.48    292
57.54    269
57.6     290
57.66    300
57.72    286
57.78    293
57.84    298
57.9     276
57.96    254
58.02    251
58.08    257
58.14    269
58.2     258
58.26    263
58.32    252
58.38    271
58.44    262
58.5     269
58.56    305
58.62    288
58.68    302
58.74    288
58.8     289
58.86    311
58.92    309
58.98    262
59.04    277
59.1     291
59.16    282
59.22    273
59.28    271
59.34    295
59.4     301
59.46    298
59.52    284
59.58    272
59.64    323
59.7     297
59.76    329
59.82    364
59.88    325
59.94    366
60.0     341
60.06    421
60.12    404
60.18    462
60.24    415
60.3     392
60.36    375
60.42    391
60.48    362
60.54    333
60.6     356
60.66    380
60.72    330
60.78    336
60.84    328
60.9     352
60.96    318
61.02    293
61.08    310
61.14    338
61.2     284
61.26    309
61.32    316
61.38    319
61.44    329
61.5     296
61.56    303
61.62    309
61.68    309
61.74    307
61.8     282
61.86    264
61.92    294
61.98    266
62.04    257
62.1     244
62.16    282
62.22    244
62.28    277
62.34    281
62.4     236
62.46    250
62.52    261
62.58    239
62.64    264
62.7     266
62.76    274
62.82    254
62.88    234
62.94    257
63.0     233
63.06    263
63.12    240
63.18    256
63.24    243
63.3     225
63.36    228
63.42    258
63.48    270
63.54    260
63.6     252
63.66    252
63.72    273
63.78    256
63.84    290
63.9     272
63.96    249
64.02    237
64.08    288
64.14    233
64.2     245
64.26    257
64.32    235
64.38    225
64.44    247
64.5     223
64.56    246
64.62    246
64.68    239
64.74    250
64.8     246
64.86    221
64.92    266
64.98    264
65.04    289
65.1     238
65.16    266
65.22    237
65.28    242
65.34    255
65.4     244
65.46    238
65.52    241
65.58    211
65.64    233
65.7     235
65.76    263
65.82    233
65.88    232
65.94    252
66.0     244
66.06    223
66.12    247
66.18    241
66.24    241
66.3     245
66.36    230
66.42    248
66.48    267
66.54    259
66.6     258
66.66    259
66.72    241
66.78    256
66.84    276
66.9     245
66.96    256
67.02    269
67.08    275
67.14    258
67.2     249
67.26    261
67.32    258
67.38    243
67.44    242
67.5     244
67.56    246
67.62    230
67.68    239
67.74    233
67.8     242
67.86    226
67.92    253
67.98    251
68.04    251
68.1     275
68.16    289
68.22    305
68.28    327
68.34    327
68.4     322
68.46    319
68.52    334
68.58    310
68.64    313
68.7     308
68.76    250
68.82    255
68.88    270
68.94    271
69.0     259
69.06    261
69.12    276
69.18    248
69.24    261
69.3     253
69.36    236
69.42    230
69.48    234
69.54    210
69.6     218
69.66    227
69.72    226
69.78    223
69.84    212
69.9     239
69.96    236
70.02    209
70.08    232
70.14    236
70.2     210
70.26    234
70.32    215
70.38    242
70.44    199
70.5     240
70.56    211
70.62    222
70.68    217
70.74    222
70.8     218
70.86    204
70.92    228
70.98    239
71.04    225
71.1     192
71.16    204
71.22    207
71.28    219
71.34    208
71.4     217
71.46    216
71.52    214
71.58    217
71.64    234
71.7     222
71.76    231
71.82    242
71.88    232
71.94    239
72.0     241
72.06    235
72.12    244
72.18    235
72.24    253
72.3     225
72.36    230
72.42    213
72.48    256
72.54    200
72.6     202
72.66    216
72.72    215
72.78    209
72.84    216
72.9     221
72.96    193
73.02    234
73.08    219
73.14    239
73.2     234
73.26    217
73.32    269
73.38    236
73.44    249
73.5     223
73.56    233
73.62    218
73.68    223
73.74    222
73.8     185
73.86    180
73.92    201
73.98    205
74.04    199
74.1     200
74.16    197
74.22    188
74.28    178
74.34    195
74.4     182
74.46    209
74.52    173
74.58    189
74.64    158
74.7     195
74.76    206
74.82    178
74.88    175
74.94    183
75.0     190
75.06    177
75.12    195
75.18    192
75.24    179
75.3     163
75.36    176
75.42    210
75.48    177
75.54    185
75.6     197
75.66    176
75.72    188
75.78    183
75.84    208
75.9     181
75.96    214
76.02    201
76.08    184
76.14    200
76.2     202
76.26    187
76.32    205
76.38    209
76.44    189
76.5     203
76.56    167
76.62    173
76.68    188
76.74    162
76.8     185
76.86    182
76.92    183
76.98    165
77.04    190
77.1     180
77.16    165
77.22    174
77.28    168
77.34    185
77.4     167
77.46    185
77.52    189
77.58    171
77.64    182
77.7     150
77.76    165
77.82    163
77.88    186
77.94    204
78.0     196
78.06    175
78.12    204
78.18    216
78.24    213
78.3     213
78.36    205
78.42    197
78.48    194
78.54    206
78.6     199
78.66    183
78.72    168
78.78    164
78.84    185
78.9     171
78.96    159
79.02    189
79.08    153
79.14    156
79.2     164
79.26    166
79.32    172
79.38    171
79.44    150
79.5     142
79.56    175
79.62    170
79.68    153
79.74    173
79.8     154
79.86    174
79.92    179
79.98    165
80.0     188